Folder: WaferScreen/waferscreen

File: umux100k_v321_banddef_summary.csv
so_band,res_num_per_chip,freq_hz,resonator_height_um,wiggles,sliders,slider_delta_um,resonator_impedance_ohms,coupling_capacitance_f,coupling_inductance_h,x_pos_mm,y_pos_mm
0.0,0.0,4019000000.0,2770.0,21.0,3.0,50.6908,50.0,4.1823e-15,0.0,-8.125,-0.2
0.0,8.0,4.03397e+09,2671.0,21.0,3.0,54.248,50.0,4.1823e-15,3.98122e-11,-0.125,-0.2
0.0,16.0,4.04893e+09,2671.0,21.0,3.0,58.9874,50.0,4.1823e-15,3.98122e-11,7.875,-0.2
0.0,24.0,4.06575e+09,2671.0,21.0,3.0,64.2714,50.0,4.1823e-15,3.98122e-11,-0.625,-0.2
0.0,32.0,4.08071e+09,2671.0,21.0,3.0,68.9371,50.0,4.1823e-15,3.98122e-11,7.375,-0.2
0.0,40.0,4.09781e+09,2271.0,23.0,3.0,82.9435,50.0,4.07026e-15,3.95907e-11,-0.875,0.2
0.0,48.0,4112775000.0,2271.0,23.0,3.0,87.5366,50.0,4.07026e-15,3.95907e-11,7.125,0.2
0.0,56.0,4.12959e+09,2271.0,23.0,3.0,92.6582,50.0,4.07026e-15,3.95907e-11,-1.375,0.2
0.0,64.0,4.14456e+09,2271.0,23.0,3.0,97.181,50.0,4.07026e-15,3.95907e-11,6.625,0.2
1.0,6.0,4.16365e+09,2671.0,19.0,3.0,13.3648,50.0,3.95946e-15,3.93683e-11,-2.125,-0.2
1.0,14.0,4.17862e+09,2671.0,19.0,3.0,17.8141,50.0,3.95946e-15,3.93683e-11,5.875,-0.2
1.0,22.0,4.19544e+09,2671.0,19.0,3.0,22.7759,50.0,3.95946e-15,3.93683e-11,-2.625,-0.2
1.0,30.0,4.2104e+09,2671.0,19.0,3.0,27.158,50.0,3.95946e-15,3.93683e-11,5.375,-0.2
1.0,38.0,4.2275e+09,2271.0,21.0,3.0,40.8581,50.0,3.85619e-15,3.91581e-11,-2.875,0.2
1.0,46.0,4.24246e+09,2271.0,21.0,3.0,45.1742,50.0,3.85619e-15,3.91581e-11,5.125,0.2
1.0,54.0,4.25928e+09,2271.0,21.0,3.0,49.988,50.0,3.85619e-15,3.91581e-11,-3.375,0.2
1.0,62.0,4.27424e+09,2271.0,21.0,3.0,54.2401,50.0,3.85619e-15,3.91581e-11,4.625,0.2
2.0,4.0,4.29334e+09,2671.0,19.0,3.0,50.5029,50.0,3.75394e-15,3.89468e-11,-4.125,-0.2
2.0,12.0,4.30831e+09,2671.0,19.0,3.0,54.6879,50.0,3.75394e-15,3.89468e-11,3.875,-0.2
2.0,20.0,4.32512e+09,2671.0,19.0,3.0,59.356,50.0,3.75394e-15,3.89468e-11,-4.625,-0.2
2.0,28.0,4.34009e+09,2671.0,19.0,3.0,63.4798,50.0,3.75394e-15,3.89468e-11,3.375,-0.2
2.0,36.0,4.35718e+09,2271.0,21.0,3.0,76.9004,50.0,3.65851e-15,3.8747e-11,-4.875,0.2
2.0,44.0,4.37215e+09,2271.0,21.0,3.0,80.9638,50.0,3.65851e-15,3.8747e-11,3.125,0.2
2.0,52.0,4.38897e+09,2271.0,21.0,3.0,85.4968,50.0,3.65851e-15,3.8747e-11,-5.375,0.2
2.0,60.0,4.40393e+09,2271.0,21.0,3.0,89.5017,50.0,3.65851e-15,3.8747e-11,2.625,0.2
3.0,2.0,4.42303e+09,2671.0,17.0,3.0,5.05823,50.0,3.56391e-15,3.85462e-11,-6.125,-0.2
3.0,10.0,4.43799e+09,2671.0,17.0,3.0,9.00177,50.0,3.56391e-15,3.85462e-11,1.875,-0.2
3.0,18.0,4454810000.0,2671.0,17.0,3.0,13.4015,50.0,3.56391e-15,3.85462e-11,-6.625,-0.2
3.0,26.0,4.46978e+09,2671.0,17.0,3.0,17.2891,50.0,3.56391e-15,3.85462e-11,1.375,-0.2
3.0,34.0,4.52087e+09,2271.0,19.0,3.0,39.0379,50.0,3.43106e-15,3.82595e-11,-6.875,0.2
3.0,42.0,4.53584e+09,2271.0,19.0,3.0,42.8129,50.0,3.43106e-15,3.82595e-11,1.125,0.2
3.0,50.0,4.55265e+09,2271.0,19.0,3.0,47.0253,50.0,3.43106e-15,3.82595e-11,-7.375,0.2
3.0,58.0,4.56762e+09,2271.0,19.0,3.0,50.7478,50.0,3.43106e-15,3.82595e-11,0.625,0.2
4.0,0.0,4.58471e+09,2770.0,17.0,3.0,47.8175,50.0,3.34748e-15,0.0,-8.125,-0.2
4.0,8.0,4.59968e+09,2671.0,17.0,3.0,49.5524,50.0,3.34748e-15,3.80762e-11,-0.125,-0.2
4.0,16.0,4.61465e+09,2671.0,17.0,3.0,53.1994,50.0,3.34748e-15,3.80762e-11,7.875,-0.2
4.0,24.0,4.63146e+09,2671.0,17.0,3.0,57.2693,50.0,3.34748e-15,3.80762e-11,-0.625,-0.2
4.0,32.0,4.64643e+09,2671.0,17.0,3.0,60.8664,50.0,3.34748e-15,3.80762e-11,7.375,-0.2
4.0,40.0,4.66552e+09,2271.0,19.0,3.0,74.1865,50.0,3.26444e-15,3.78918e-11,-0.875,0.2
4.0,48.0,4.68049e+09,2271.0,19.0,3.0,77.7314,50.0,3.26444e-15,3.78918e-11,7.125,0.2
4.0,56.0,4.69731e+09,2271.0,19.0,3.0,81.6879,50.0,3.26444e-15,3.78918e-11,-1.375,0.2
4.0,64.0,4.71227e+09,2271.0,19.0,3.0,85.185,50.0,3.26444e-15,3.78918e-11,6.625,0.2
5.0,6.0,4.72937e+09,2671.0,17.0,3.0,80.0738,50.0,3.18672e-15,3.77171e-11,-2.125,-0.2
5.0,14.0,4.74433e+09,2671.0,17.0,3.0,83.5237,50.0,3.18672e-15,3.77171e-11,5.875,-0.2
5.0,22.0,4761150000.0,2671.0,17.0,3.0,87.3746,50.0,3.18672e-15,3.77171e-11,-2.625,-0.2
5.0,30.0,4.77612e+09,2671.0,17.0,3.0,90.7787,50.0,3.18672e-15,3.77171e-11,5.375,-0.2
5.0,38.0,4.79521e+09,2271.0,17.0,3.0,23.4579,50.0,3.10944e-15,3.75413e-11,-2.875,0.2
5.0,46.0,4.81018e+09,2271.0,17.0,3.0,26.8139,50.0,3.10944e-15,3.75413e-11,5.125,0.2
5.0,54.0,4.82699e+09,2271.0,17.0,3.0,30.5602,50.0,3.10944e-15,3.75413e-11,-3.375,0.2
5.0,62.0,4.84196e+09,2271.0,17.0,3.0,33.8723,50.0,3.10944e-15,3.75413e-11,4.625,0.2
6.0,4.0,4.85905e+09,2671.0,15.0,3.0,28.5605,50.0,3.03703e-15,3.73747e-11,-4.125,-0.2
6.0,12.0,4.87402e+09,2671.0,15.0,3.0,31.8291,50.0,3.03703e-15,3.73747e-11,3.875,-0.2
6.0,20.0,4.89084e+09,2671.0,15.0,3.0,35.4781,50.0,3.03703e-15,3.73747e-11,-4.625,-0.2
6.0,28.0,4.9058e+09,2671.0,15.0,3.0,38.7043,50.0,3.03703e-15,3.73747e-11,3.375,-0.2
6.0,36.0,4.9249e+09,2271.0,17.0,3.0,51.5745,50.0,2.96495e-15,3.72069e-11,-4.875,0.2
6.0,44.0,4.93986e+09,2271.0,17.0,3.0,54.7563,50.0,2.96495e-15,3.72069e-11,3.125,0.2
6.0,52.0,4.95668e+09,2271.0,17.0,3.0,58.3089,50.0,2.96495e-15,3.72069e-11,-5.375,0.2
6.0,60.0,4.97165e+09,2271.0,17.0,3.0,61.4501,50.0,2.96495e-15,3.72069e-11,2.625,0.2
7.0,2.0,5.02274e+09,2671.0,15.0,3.0,62.903,50.0,2.86326e-15,3.69668e-11,-6.125,-0.2
7.0,10.0,5.03771e+09,2671.0,15.0,3.0,65.9622,50.0,2.86326e-15,3.69668e-11,1.875,-0.2
7.0,18.0,5.05452e+09,2671.0,15.0,3.0,69.3784,50.0,2.86326e-15,3.69668e-11,-6.625,-0.2
7.0,26.0,5.06949e+09,2671.0,15.0,3.0,72.3993,50.0,2.86326e-15,3.69668e-11,1.375,-0.2
7.0,34.0,5.08658e+09,2271.0,15.0,3.0,4.21754,50.0,2.79897e-15,3.68129e-11,-6.875,0.2
7.0,42.0,5.10155e+09,2271.0,15.0,3.0,7.20061,50.0,2.79897e-15,3.68129e-11,1.125,0.2
7.0,50.0,5.11837e+09,2271.0,15.0,3.0,10.5319,50.0,2.79897e-15,3.68129e-11,-7.375,0.2
7.0,58.0,5.13333e+09,2271.0,15.0,3.0,13.4781,50.0,2.79897e-15,3.68129e-11,0.625,0.2
8.0,0.0,5.15243e+09,2770.0,13.0,3.0,10.6784,50.0,2.73489e-15,0.0,-8.125,-0.2
8.0,8.0,5.16739e+09,2671.0,13.0,3.0,11.0632,50.0,2.73489e-15,3.66579e-11,-0.125,-0.2
8.0,16.0,5.18236e+09,2671.0,13.0,3.0,13.9538,50.0,2.73489e-15,3.66579e-11,7.875,-0.2
8.0,24.0,5.19918e+09,2671.0,13.0,3.0,17.1822,50.0,2.73489e-15,3.66579e-11,-0.625,-0.2
8.0,32.0,5.21414e+09,2671.0,13.0,3.0,20.0376,50.0,2.73489e-15,3.66579e-11,7.375,-0.2
8.0,40.0,5.23124e+09,2271.0,15.0,3.0,32.0824,50.0,2.67469e-15,3.65107e-11,-0.875,0.2
8.0,48.0,5.2462e+09,2271.0,15.0,3.0,34.903,50.0,2.67469e-15,3.65107e-11,7.125,0.2
8.0,56.0,5.26302e+09,2271.0,15.0,3.0,38.0534,50.0,2.67469e-15,3.65107e-11,-1.375,0.2
8.0,64.0,5.27799e+09,2271.0,15.0,3.0,40.8401,50.0,2.67469e-15,3.65107e-11,6.625,0.2
9.0,6.0,5.29708e+09,2671.0,13.0,3.0,35.3231,50.0,2.61463e-15,3.63624e-11,-2.125,-0.2
9.0,14.0,5.31205e+09,2671.0,13.0,3.0,38.0741,50.0,2.61463e-15,3.63624e-11,5.875,-0.2
9.0,22.0,5.32886e+09,2671.0,13.0,3.0,41.147,50.0,2.61463e-15,3.63624e-11,-2.625,-0.2
9.0,30.0,5.34383e+09,2671.0,13.0,3.0,43.8654,50.0,2.61463e-15,3.63624e-11,5.375,-0.2
9.0,38.0,5.36092e+09,2271.0,15.0,3.0,55.7614,50.0,2.55817e-15,3.62215e-11,-2.875,0.2
9.0,46.0,5.37589e+09,2271.0,15.0,3.0,58.4474,50.0,2.55817e-15,3.62215e-11,5.125,0.2
9.0,54.0,5.39271e+09,2271.0,15.0,3.0,61.4478,50.0,2.55817e-15,3.62215e-11,-3.375,0.2
9.0,62.0,5.40767e+09,2271.0,15.0,3.0,64.1023,50.0,2.55817e-15,3.62215e-11,4.625,0.2
10.0,4.0,5.42677e+09,2671.0,13.0,3.0,58.4246,50.0,2.50179e-15,3.60795e-11,-4.125,-0.2
10.0,12.0,5.44173e+09,2671.0,13.0,3.0,61.0459,50.0,2.50179e-15,3.60795e-11,3.875,-0.2
10.0,20.0,5.45855e+09,2671.0,13.0,3.0,63.9743,50.0,2.50179e-15,3.60795e-11,-4.625,-0.2
10.0,28.0,5.47352e+09,2671.0,13.0,3.0,66.5652,50.0,2.50179e-15,3.60795e-11,3.375,-0.2
10.0,36.0,5.52461e+09,2271.0,13.0,3.0,3.65744,50.0,2.42193e-15,3.58758e-11,-4.875,0.2
10.0,44.0,5.53958e+09,2271.0,13.0,3.0,6.18682,50.0,2.42193e-15,3.58758e-11,3.125,0.2
10.0,52.0,5.55639e+09,2271.0,13.0,3.0,9.01285,50.0,2.42193e-15,3.58758e-11,-5.375,0.2
10.0,60.0,5.57136e+09,2271.0,13.0,3.0,11.5134,50.0,2.42193e-15,3.58758e-11,2.625,0.2
11.0,2.0,5.58846e+09,2671.0,11.0,3.0,5.32064,50.0,2.37125e-15,3.5745e-11,-6.125,-0.2
11.0,10.0,5.60342e+09,2671.0,11.0,3.0,7.79264,50.0,2.37125e-15,3.5745e-11,1.875,-0.2
11.0,18.0,5.62024e+09,2671.0,11.0,3.0,10.5547,50.0,2.37125e-15,3.5745e-11,-6.625,-0.2
11.0,26.0,5.6352e+09,2671.0,11.0,3.0,12.9989,50.0,2.37125e-15,3.5745e-11,1.375,-0.2
11.0,34.0,5.6543e+09,2271.0,13.0,3.0,24.9178,50.0,2.32058e-15,3.5613e-11,-6.875,0.2
11.0,42.0,5.66927e+09,2271.0,13.0,3.0,27.3326,50.0,2.32058e-15,3.5613e-11,1.125,0.2
11.0,50.0,5.68608e+09,2271.0,13.0,3.0,30.031,50.0,2.32058e-15,3.5613e-11,-7.375,0.2
11.0,58.0,5.70105e+09,2271.0,13.0,3.0,32.4189,50.0,2.32058e-15,3.5613e-11,0.625,0.2
12.0,0.0,5.71814e+09,2770.0,11.0,3.0,29.1108,50.0,2.27285e-15,0.0,-8.125,-0.2
12.0,8.0,5.73311e+09,2671.0,11.0,3.0,28.4651,50.0,2.27285e-15,3.54875e-11,-0.125,-0.2
12.0,16.0,5.74807e+09,2671.0,11.0,3.0,30.8141,50.0,2.27285e-15,3.54875e-11,7.875,-0.2
12.0,24.0,5.76489e+09,2671.0,11.0,3.0,33.4391,50.0,2.27285e-15,3.54875e-11,-0.625,-0.2
12.0,32.0,5.77986e+09,2671.0,11.0,3.0,35.7623,50.0,2.27285e-15,3.54875e-11,7.375,-0.2
12.0,40.0,5.79895e+09,2271.0,13.0,3.0,47.5334,50.0,2.22509e-15,3.53608e-11,-0.875,0.2
12.0,48.0,5.81392e+09,2271.0,13.0,3.0,49.8294,50.0,2.22509e-15,3.53608e-11,7.125,0.2
12.0,56.0,5.83073e+09,2271.0,13.0,3.0,52.3954,50.0,2.22509e-15,3.53608e-11,-1.375,0.2
12.0,64.0,5.8457e+09,2271.0,13.0,3.0,54.6665,50.0,2.22509e-15,3.53608e-11,6.625,0.2
13.0,6.0,5.8628e+09,2671.0,11.0,3.0,48.2239,50.0,2.18006e-15,3.52403e-11,-2.125,-0.2
13.0,14.0,5.87776e+09,2671.0,11.0,3.0,50.4703,50.0,2.18006e-15,3.52403e-11,5.875,-0.2
13.0,22.0,5.89458e+09,2671.0,11.0,3.0,52.9809,50.0,2.18006e-15,3.52403e-11,-2.625,-0.2
13.0,30.0,5.90954e+09,2671.0,11.0,3.0,55.2031,50.0,2.18006e-15,3.52403e-11,5.375,-0.2
13.0,38.0,5.92864e+09,2271.0,13.0,3.0,66.8513,50.0,2.13498e-15,3.51185e-11,-2.875,0.2
13.0,46.0,5.94361e+09,2271.0,13.0,3.0,69.0481,50.0,2.13498e-15,3.51185e-11,5.125,0.2
13.0,54.0,5.96042e+09,2271.0,13.0,3.0,71.5035,50.0,2.13498e-15,3.51185e-11,-3.375,0.2
13.0,62.0,5.97539e+09,2271.0,13.0,3.0,73.6769,50.0,2.13498e-15,3.51185e-11,4.625,0.2
13.0,65.0,5981000000.0,2271.0,13.0,3.0,74.4892,50.0,2.13498e-15,3.51185e-11,7.625,0.2